Sample 6,,
Wavelength (nm),Intensity (a.u.),
346.9200134,0.9904259443,
347.8399963,0.4722298384,
348.9200134,0.2314707637,
349.8399963,0.3068049252,
350.8999939,0.3108292818,
351.9599915,0.4839515388,
352.8699951,0.2653927803,
353.9299927,0.4193913937,
354.8399963,0.2316065729,
355.8999939,0.2982450426,
356.9599915,0.4217695594,
357.8699951,0.2799247503,
358.9299927,0.3734420538,
359.8399963,0.2127485424,
360.9200134,0.1398818642,
361.8399963,0.2811182439,
362.9200134,0.3569458425,
363.8399963,0.2679570615,
364.9200134,0.241721049,
365.8399963,-0.04676758125,
366.9200134,0.07896523923,
367.8399963,0.2874572873,
368.9200134,0.1088867113,
369.8399963,0.3723585606,
370.8999939,0.3416944742,
371.9599915,0.7159978747,
372.8699951,0.8585835099,
373.9299927,1.075771809,
374.8399963,1.587931752,
375.8999939,1.523100257,
376.9599915,1.335134268,
377.8699951,1.610380769,
378.9299927,1.192824006,
379.8399963,0.9924480915,
380.9200134,0.6771463156,
381.8399963,0.4866103828,
382.9200134,0.1733320653,
383.8399963,0.2596306801,
384.9200134,0.2048566788,
385.8399963,0.03170074522,
386.9200134,0.1871987283,
387.8399963,0.07916653901,
388.9200134,0,
389.8399963,0.126560241,
390.8999939,0.09616463631,
391.9599915,-0.07934618741,
392.8699951,0.1082920805,
393.9299927,-0.01547652204,
394.8399963,0.1081314906,
395.8999939,0,
396.9599915,0.1560865939,
397.8699951,0.2165607065,
398.9299927,0.03101737052,
399.8399963,0.1246125326,
400.8999939,0.2334049046,
401.9599915,0.1095598862,
402.8699951,0.09428329021,
403.9299927,0.06280913949,
404.8399963,0.06259977072,
405.8999939,0.07874511927,
406.9599915,0.04683840647,
407.8699951,0.07899143547,
408.9299927,0,
409.8399963,0.2038064897,
410.8999939,-0.0158672221,
411.9599915,0.03138042614,
412.8699951,0.1422857493,
413.9299927,0.1127849817,
414.8399963,0.07882705331,
415.8999939,0.06393452734,
416.9599915,0,
417.8699951,0,
418.9299927,0.06195691228,
419.8399963,-0.03110274673,
420.8999939,0.06304673105,
421.9599915,0.09410879016,
422.8699951,0.01568947546,
423.9299927,-0.09294399619,
424.8399963,0.07804086059,
425.8999939,0.04674644768,
426.9599915,0.04672533274,
427.8699951,0,
428.9299927,0.09359936416,
429.8399963,0.0625449568,
430.8900146,0.1713555902,
431.9400024,0.247214973,
432.980011,0.03116624057,
433.8800049,0.09381156415,
434.9200134,0.109493047,
435.9700012,0.09511731565,
436.8599854,0.1118353754,
437.9100037,0.07947356999,
438.9500122,0.0632301122,
439.8500061,0,
440.8999939,0.04691972211,
441.9599915,0.03141393885,
442.8699951,0.04700720683,
443.9299927,0.1255354881,
444.8399963,0.03205899149,
445.8999939,0.01580627821,
446.9599915,0.111355029,
447.8699951,-0.09661058336,
448.9299927,-0.08185047656,
449.8399963,0.2056376338,
450.8999939,0.03179650381,
451.9599915,-0.01589168236,
452.8699951,0.06467573345,
453.9299927,0.08083681762,
454.8399963,0.0162477456,
455.8999939,0.03533506766,
456.9599915,0.06615834683,
457.8699951,-0.03314495832,
458.9299927,0.2108096629,
459.8399963,0.08060225844,
460.8900146,0.0491948463,
461.9400024,0.06551362574,
462.980011,0.1179762036,
463.8800049,0.03287203237,
464.9200134,-0.04921017587,
465.9700012,-0.01643196307,
466.8599854,0.1476886719,
467.9100037,0.03497971222,
468.9500122,0.06560603529,
469.8500061,0,
470.8900146,0.01643574424,
471.9400024,0.1166044772,
472.980011,0.1625619829,
473.8800049,0.1008233875,
474.9200134,0.1847249269,
475.9700012,0.09851246327,
476.8599854,0.0965546146,
477.9100037,0.01605600305,
478.9500122,0.1162269413,
479.8500061,0.08448514342,
480.8900146,0.01630018465,
481.9400024,0.1142074019,
482.980011,0.08159934729,
483.8800049,-0.03247122467,
484.9200134,0.06557914615,
485.9700012,0,
486.8599854,0.04818348214,
487.9100037,0.1320110112,
488.9500122,0.1251788139,
489.8500061,0.09987848252,
490.8900146,0.1560197622,
491.9400024,0.164041996,
492.980011,0.04946006089,
493.8800049,0.1451823562,
494.9200134,0.06416323036,
495.9700012,0.08019375056,
496.8599854,0.1125022098,
497.9100037,0.06350214034,
498.9500122,0.06436974555,
499.8500061,0.08222467452,
500.8900146,0.03331722692,
501.9400024,0.01627365872,
502.980011,0.2595169544,
503.8800049,0.01606916077,
504.9200134,-0.04857670143,
505.9700012,0,
506.8599854,-0.1612929255,
507.9100037,0.09743264318,
508.9500122,0.09630355239,
509.8500061,0.06254592538,
510.8900146,-0.0158420857,
511.9400024,0.08131007105,
512.9799805,0.1461845785,
513.8800049,-0.01592483558,
514.9199829,0.1429887712,
515.9699707,-0.01621008292,
516.8599854,0.06307058781,
517.9099731,0.04743683338,
518.9500122,0,
519.8499756,0.07868687809,
520.8800049,0.1118621901,
521.9099731,0.06360413134,
522.9400024,-0.01607898064,
523.9699707,0.172725141,
524.8499756,0.1096250862,
525.8800049,0.03286338598,
526.9099731,-0.04715127498,
527.9400024,0.01606812887,
528.9699707,-0.07806766778,
529.8499756,0.09579002857,
530.8900146,-0.01590558514,
531.9400024,0.1438895017,
532.9799805,0.03206721321,
533.8800049,-0.0943589136,
534.9199829,0.1276079863,
535.9699707,-0.0160081964,
536.8599854,0.141589582,
537.9099731,0.0159877222,
538.9500122,0.01590179093,
539.8499756,0.1285698265,
540.8800049,0.1568455249,
541.9099731,0.01583531313,
542.9400024,0.03179700673,
543.9699707,0,
544.8499756,-0.1256952584,
545.8800049,0.09820128232,
546.9099731,0.1106369495,
547.9400024,-0.03145593777,
548.9699707,0.1724327207,
549.8499756,0.04769096151,
550.8800049,0.04690064862,
551.9099731,-0.06180660427,
552.9400024,-0.1101027057,
553.9699707,0.04698144272,
554.8499756,0.01566023566,
555.8800049,-0.1256991923,
556.9099731,0.1402153075,
557.9400024,-0.04749315605,
558.9699707,0,
559.8499756,0.125474453,
560.8800049,0,
561.9099731,0.03154822811,
562.9400024,0.109364748,
563.9699707,0.07751096785,
564.8499756,0.03159857169,
565.8800049,-0.01556081232,
566.9099731,0,
567.9400024,0.01557438355,
568.9699707,0.0315791145,
569.8499756,0.06416014582,
570.8599854,0.01548443083,
571.8800049,0.0958359316,
572.8900146,0.1278445423,
573.9099731,0.03138140962,
574.9199829,0.2341627777,
575.9400024,0.01573316567,
576.9500122,-0.01598465443,
577.9699707,0,
578.9799805,0.1760732383,
579.8499756,0,
580.8800049,0,
581.9099731,0.09384677559,
582.9400024,0.09384971857,
583.9699707,0.04745484143,
584.8499756,0.1117122322,
585.8800049,0,
586.9099731,-0.04675810412,
587.9400024,0,
588.9699707,0.04823306203,
589.8499756,0.2395630479,
590.8599854,0.01579404436,
591.8800049,0.04853426293,
592.8900146,0.03192032874,
593.9099731,-0.01558822114,
594.9199829,0.1586294323,
595.9400024,-0.1263463795,
596.9500122,0.01622059941,
597.9699707,0.09318651259,
598.9799805,0.1415628493,
599.8499756,0,
600.8599854,0,
601.8800049,0,
602.8900146,0.1283058822,
603.9099731,0.0637267381,
604.9199829,-0.04708024114,
605.9400024,0.1890120953,
606.9500122,0,
607.9699707,-0.01612643152,
608.9799805,0.1745865494,
609.8499756,0.1444993764,
610.8599854,0,
611.8800049,-0.01566023566,
612.8900146,0.1105373651,
613.9099731,-0.1638457924,
614.9199829,0,
615.9400024,0,
616.9500122,0.0796000883,
617.9699707,-0.01641685516,
618.9799805,0.04651739821,
619.8499756,0.2696230114,
620.8599854,0.07866830379,
621.8800049,0.1103109196,
622.8900146,0.1286256313,
623.9099731,0.03271234408,
624.9199829,0.188152656,
625.9400024,0.07929459214,
626.9500122,0.07798973471,
627.9699707,0.06302686036,
628.9799805,0.06240833923,
629.8499756,-0.06432108581,
630.8499756,0.1093049794,
631.8499756,0.04617871344,
632.8499756,0.04734549671,
633.8499756,0.1100819334,
634.8499756,0.07994116098,
635.8499756,0.1111887693,
636.8499756,0.09190050513,
637.8499756,0.03154573962,
638.8499756,-0.04884004593,
639.8499756,0,
640.8599854,0.1719529033,
641.8800049,0.09540922195,
642.8900146,0.04758354649,
643.9099731,0.1255630851,
644.9199829,0.1231299713,
645.9400024,0.1004032865,
646.9500122,0.01548610814,
647.9699707,0.1126343533,
648.9799805,0.0960830152,
649.8499756,0.04833330587,
650.8499756,0.04705218226,
651.8499756,0.01569045894,
652.8499756,0.1150899306,
653.8499756,0.01668502018,
654.8499756,0,
655.8499756,0.1119767129,
656.8499756,0.09685698897,
657.8499756,0.01646551117,
658.8499756,0.1913387328,
659.8499756,0.11314594,
660.8499756,0.01582654193,
661.8499756,0.09509620816,
662.8499756,-0.01585866883,
663.8499756,0,
664.8499756,0.04739261419,
665.8499756,0.2984511852,
666.8499756,0.5113127828,
667.8499756,1.096491218,
668.8499756,1.761909485,
669.8499756,2.662063122,
670.9799805,4.177562714,
671.9699707,5.522566319,
672.9500122,6.786233902,
673.9400024,8.33657074,
674.9199829,9.728933334,
675.9099731,10.98390579,
676.9000244,11.42255592,
677.8800049,11.48101997,
678.8699951,10.96675873,
679.8499756,9.603414536,
680.8499756,8.748129845,
681.8499756,6.966006279,
682.8499756,5.661758423,
683.8499756,4.560706139,
684.8499756,3.353766203,
685.8499756,2.013290882,
686.8499756,1.082521439,
687.8499756,0.5698769689,
688.8499756,0.321357429,
689.8499756,0.2885216475,
690.9799805,0.04891330749,
691.9699707,-0.04835122451,
692.9500122,0.1195538938,
693.9400024,0.0165196415,
694.9199829,-0.01629487239,
695.9099731,0.08050492406,
696.9000244,0.1184894294,
697.8800049,0.09949918836,
698.8699951,0.1305973083,
699.8499756,0.03221805394,
700.9799805,0.06404406577,

Sample 6,
Sample 6
Collection Time: 13/04/2023 2:28:04 PM
Operator Name  :
Scan Software Version: 1.2(147)
Parameter List :
Instrument                        Cary Eclipse
Instrument Serial Number          test
Data mode                         Fluorescence
Scan mode                         Emission
X Mode                            Wavelength (nm)
Start (nm)                        347.00
Stop (nm)                         700.00
Ex. Wavelength (nm)               337.00
Ex. Slit (nm)                     5
Em. Slit (nm)                     5
Scan rate (nm/min)                600.00
Data interval (nm)                1.0000
Averaging Time (s)                0.1000
Excitation filter                 Auto
Emission filter                   Open
PMT voltage (V)                   Medium
Corrected spectra                 OFF
Method Log     :
Method Name    : Default
Date/Time stamp: 13/04/2023 2:20:41 PM
Method Modifications:
Overlayed Graphs Changed: 13/04/2023 2:23:02 PM, Old:OFF, New:ON
Excitation Wavelength Changed: 13/04/2023 2:23:02 PM, Old: 350.00, New: 340.00
Emission Wavelength Changed: 13/04/2023 2:23:02 PM, Old: 400.00, New: 350.00
Stop Wavelength Changed: 13/04/2023 2:23:02 PM, Old: 600.00, New: 700.00
Scan mode: Changed: 13/04/2023 2:24:00 PM, Old:Emission, New:Excitation
Excitation Wavelength Changed: 13/04/2023 2:24:00 PM, Old: 340.00, New: 220.00
Emission Wavelength Changed: 13/04/2023 2:24:00 PM, Old: 350.00, New: 375.00
Stop Wavelength Changed: 13/04/2023 2:24:00 PM, Old: 700.00, New: 365.00
Scan mode: Changed: 13/04/2023 2:24:45 PM, Old:Excitation, New:Emission
Excitation Wavelength Changed: 13/04/2023 2:24:45 PM, Old: 220.00, New: 337.00
Emission Wavelength Changed: 13/04/2023 2:24:45 PM, Old: 375.00, New: 347.00
Stop Wavelength Changed: 13/04/2023 2:24:45 PM, Old: 365.00, New: 700.00
Scan mode: Changed: 13/04/2023 2:26:16 PM, Old:Emission, New:Excitation
Excitation Wavelength Changed: 13/04/2023 2:26:16 PM, Old: 337.00, New: 220.00
Emission Wavelength Changed: 13/04/2023 2:26:16 PM, Old: 347.00, New: 374.00
Stop Wavelength Changed: 13/04/2023 2:26:16 PM, Old: 700.00, New: 364.00
Scan mode: Changed: 13/04/2023 2:28:02 PM, Old:Excitation, New:Emission
Excitation Wavelength Changed: 13/04/2023 2:28:02 PM, Old: 220.00, New: 337.00
Emission Wavelength Changed: 13/04/2023 2:28:02 PM, Old: 374.00, New: 347.00
Stop Wavelength Changed: 13/04/2023 2:28:02 PM, Old: 364.00, New: 700.00
End Method Modifications

