Sample 2,,
Wavelength (nm),Intensity (a.u.),
368,0.3762604594,
369.0700073,0.24528642,
370,0.1737001389,
371.0599976,0.1423273087,
371.9599915,0.1091345623,
373.0299988,0.1974537075,
373.9299927,0.1334723681,
375,0.1733803302,
376.0599976,0.2396713942,
376.9599915,0.2374732792,
378.0299988,0.1845420748,
378.9299927,0.1656136513,
380,0.1398854703,
381.0700073,0.1890530139,
382,0.1729063988,
383.0700073,0.1493986696,
384,0.1477723271,
385.0700073,0.09958753735,
386,0.1568990052,
387.0700073,0.0681913048,
388,0.1814631075,
389.0700073,0.05023863167,
390,0.09762071818,
391.0599976,0.03384753317,
391.9599915,0.05929037929,
393.0299988,0.144728899,
393.9299927,0.06832876801,
395,0.2249913514,
396.0599976,0.1522919983,
396.9599915,0.3018361628,
398.0299988,0.358536154,
398.9299927,0.4553541839,
400,0.6820061207,
401.0599976,0.7803584337,
401.9599915,0.8987470269,
403.0299988,0.9521855116,
403.9299927,0.9853944778,
405,0.8148807287,
406.0599976,0.794254303,
406.9599915,0.5571215749,
408.0299988,0.5471242666,
408.9299927,0.4116514027,
410,0.3097919524,
411.0599976,0.2767448127,
411.9599915,0.2691814005,
413.0299988,0.2217900157,
413.9299927,0.1893939376,
415,0.138572529,
416.0599976,0.1415829062,
416.9599915,0.1776589602,
418.0299988,0.1120370924,
418.9299927,0.171960175,
420,0.0686218217,
421.0599976,0.1580972224,
421.9599915,0.01717947423,
423.0299988,0.1272458881,
423.9299927,0.08644162863,
425,0.1379655302,
426.0599976,0.1200727299,
426.9599915,0.06855536997,
428.0299988,0.04660353437,
428.9299927,0.02525784075,
430,0.05322876573,
431.0400085,0.141201809,
431.9400024,0.1314405799,
432.980011,0.008673027158,
434.019989,0.1454783529,
435.0700073,0.1015993431,
435.9700012,0.06367398798,
437.0100098,0.1655311733,
438.0499878,0.03518432379,
438.9500122,0.1135906875,
440,0.07266584039,
441.0599976,0.09534788877,
441.9599915,0.1047385484,
443.0299988,0.05233638361,
443.9299927,0.1210978404,
445,0.09178101271,
446.0599976,0.1699524075,
446.9599915,0.008943743072,
448.0299988,0.1559927166,
448.9299927,0.06929166615,
450,0.1394420564,
451.0599976,0.08765778691,
451.9599915,0.08918298781,
453.0299988,0.1128962263,
453.9299927,0.1091981232,
455,0.008544306271,
456.0599976,0.1272842884,
456.9599915,0.1309437454,
458.0299988,0.1121230945,
458.9299927,0.1307098418,
460,0.1110503674,
461.0400085,0.08727450669,
461.9400024,0.1271563619,
462.980011,0.1260843277,
464.019989,0.04986867681,
465.0700073,0.1006272435,
465.9700012,0.06715578586,
467.0100098,0.09238495678,
468.0499878,0.1819640547,
468.9500122,0.1414015442,
470,0.09273153543,
471.0400085,0.0580185838,
471.9400024,0.1166695803,
472.980011,0.05072237179,
474.019989,0.1321724057,
475.0700073,0.07723266631,
475.9700012,0.1410296857,
477.0100098,0.1168916896,
478.0499878,0.1089105606,
478.9500122,0.2196817994,
480,0.1006129012,
481.0400085,0.1237235814,
481.9400024,0.05829738453,
482.980011,0.1476280987,
484.019989,0.05054461956,
485.0700073,0.1087611243,
485.9700012,0.09026751667,
487.0100098,0.140002951,
488.0499878,0.06939022988,
488.9500122,0.1088531092,
490,0.05927632004,
491.0400085,0.07276961207,
491.9400024,0.05084918439,
492.980011,0.0499567017,
494.019989,0.1250281334,
495.0700073,0.1028497964,
495.9700012,0.05866479129,
497.0100098,0.1112499386,
498.0499878,0.0925154984,
498.9500122,0.1255650371,
500,0.1011429131,
501.0400085,0.04111402482,
501.9400024,0.04241097718,
502.980011,0.1158748567,
504.019989,0.09282073379,
505.0700073,0.06967973709,
505.9700012,0.09060432762,
507.0100098,0.04247149825,
508.0499878,0.08892524987,
508.9500122,0.02579247393,
510,-0.008554539643,
511.0400085,0.03459728882,
511.9400024,0.03408606723,
512.9799805,0.02620293386,
514.0200195,0.05225889012,
515.0700073,0.08346548676,
515.9699707,0.06068855524,
517.0100098,0.08285897225,
518.0499878,-0.02580778301,
518.9500122,0.1545422524,
520,0.02606497146,
521.0200195,0.04412088916,
522.0499878,0.05046045035,
522.9400024,0.07754208148,
523.9699707,0.1016518399,
525,0.1048740223,
526.0200195,0.05910714343,
527.0499878,0.1435289532,
527.9400024,0.03301011026,
528.9699707,0.09376305342,
530,0.07768331468,
531.039978,0.08461310714,
531.9400024,0.07623887807,
532.9799805,0.1472843438,
534.0200195,0.08720524609,
535.0700073,0.05921464786,
535.9699707,0.04331967235,
537.0100098,0,
538.0499878,-0.06900596619,
538.9500122,0.0605683066,
540,0.0933033675,
541.0200195,0.07582522929,
542.0499878,0.0416437611,
542.9400024,0.03454917669,
543.9699707,0.01701389253,
545,-0.0346927084,
546.0200195,0.05917460099,
547.0499878,0.04198364168,
547.9400024,0.05959323421,
548.9699707,0.1104869097,
550,0.108622089,
551.0200195,0.07527979463,
552.0499878,-0.01732471772,
552.9400024,0.06870727241,
553.9699707,0.008467185311,
555,0.05123825744,
556.0200195,0.01711654663,
557.0499878,0.086465545,
557.9400024,0.08671146631,
558.9699707,0.09459517896,
560,0.04223044217,
561.0200195,0.1849079877,
562.0499878,0.03450477123,
562.9400024,0.03325490654,
563.9699707,0.06010750681,
565,0.05090353638,
566.0200195,-0.008620169945,
567.0499878,0.077027753,
567.9400024,0.04309898987,
568.9699707,0.06048665941,
570,0.01729699783,
571.0100098,-0.02660918981,
572.0200195,-0.008617421612,
573.039978,0.05120764673,
574.0499878,0.1000500247,
575.0700073,-0.01674999855,
575.9400024,0.008678671904,
576.9500122,0.07815417647,
577.9699707,0.05904083699,
578.9799805,0.1210894659,
580,0.07805385441,
581.0200195,-0.03365105763,
582.0499878,0.05888538435,
582.9400024,0.1462642401,
583.9699707,0.1066183299,
585,0,
586.0200195,0.0342245996,
587.0499878,0,
587.9400024,-0.008872090839,
588.9699707,0.07131205499,
590,0.07641754299,
591.0100098,0.03290908039,
592.0200195,0.01717209816,
593.039978,0.06835445017,
594.0499878,0,
595.0700073,0.04195299745,
595.9400024,0.04253581539,
596.9500122,0.04564542696,
597.9699707,0.06835737079,
598.9799805,-0.03379834443,
600,0.04334896803,
601.0100098,0.05258729681,
602.0200195,0.0531274341,
603.039978,0.008471488953,
604.0499878,0.01725744642,
605.0700073,0.008733852766,
605.9400024,-0.03488209844,
606.9500122,0.05344973505,
607.9699707,0.04319094494,
608.9799805,-0.0172757823,
610,-0.008790436201,
611.0100098,0.06248884276,
612.0200195,0.03540888429,
613.039978,0.05143238977,
614.0499878,0.07845804095,
615.0700073,0.008575005457,
615.9400024,-0.04360414296,
616.9500122,-0.02806229889,
617.9699707,0.04393132776,
618.9799805,0,
620,-0.009059283882,
621.0100098,-0.008726460859,
622.0200195,-0.009011768736,
623.039978,0.04403579235,
624.0499878,0.08195750415,
625.0700073,0.05740583315,
625.9400024,0.05281736702,
626.9500122,0.05283410847,
627.9699707,0.1206698045,
628.9799805,0,
630,0.05363607779,
631,0.04450536519,
632,0.04948241264,
633,0.1105141491,
634,0.06118079275,
635,0.06227314472,
636,0.1100271419,
637,0,
638,0.09573542327,
639,-0.02670702524,
640,0.1581833512,
641.0100098,0,
642.0200195,-0.01750010997,
643.039978,0.01740841009,
644.0499878,0.01719986089,
645.0700073,-0.03500787541,
645.9400024,0,
646.9500122,-0.04303407297,
647.9699707,0.02539209649,
648.9799805,0.05952785909,
650,0.0174118951,
651,-0.03410961106,
652,0.1104352847,
653,0.01692892238,
654,0.02642845921,
655,0.06691033393,
656,0.04197412729,
657,-0.09450577945,
658,0.02591188252,
659,0.00835247431,
660,-0.03411513939,
661,0.08494588733,
662,0.035590671,
663,0.00849697087,
664,0.05209373683,
665,-0.05774783343,
666,-0.01731541939,
667,0.02487129159,
668,-0.06149467081,
669,0.02677280642,
670,0.05120633543,
670.9799805,0.008761707693,
671.9699707,-0.06420722604,
672.9500122,-0.01750807464,
673.9400024,0.02577385865,
675.0700073,0.05197190121,
676.0499878,0,
677.039978,-0.06077707931,
678.0200195,0.06764469296,
679.0100098,-0.0421542488,
680,0.05887746066,
681,0.1013616249,
682,0,
683,0.03287797421,
684,-0.008445090614,
685,-0.1001092792,
686,0,
687,0.05062394217,
688,0.05001917481,
689,0,
690,0,
690.9799805,-0.04523044825,
691.9699707,0.05470908433,
692.9500122,0.04227829352,
693.9400024,-0.02504445426,
695.0700073,0.008615861647,
696.0499878,0.06797230244,
697.039978,-0.09190869331,
698.0200195,0.0905206725,
699.0100098,0.01665015519,
700,-0.008542919531,

Sample 2,
Sample 2
Collection Time: 31/05/2023 3:07:46 PM
Operator Name  :
Scan Software Version: 1.2(147)
Parameter List :
Instrument                        Cary Eclipse
Instrument Serial Number          test
Data mode                         Fluorescence
Scan mode                         Emission
X Mode                            Wavelength (nm)
Start (nm)                        368.00
Stop (nm)                         700.00
Ex. Wavelength (nm)               358.00
Ex. Slit (nm)                     5
Em. Slit (nm)                     5
Scan rate (nm/min)                600.00
Data interval (nm)                1.0000
Averaging Time (s)                0.1000
Excitation filter                 Auto
Emission filter                   Open
PMT voltage (V)                   Medium
Corrected spectra                 OFF
Method Log     :
Method Name    : Default
Date/Time stamp: 31/05/2023 3:03:02 PM
Method Modifications:
Overlayed Graphs Changed: 31/05/2023 3:07:04 PM, Old:OFF, New:ON
Excitation Wavelength Changed: 31/05/2023 3:07:04 PM, Old: 350.00, New: 358.00
Emission Wavelength Changed: 31/05/2023 3:07:04 PM, Old: 400.00, New: 368.00
Stop Wavelength Changed: 31/05/2023 3:07:33 PM, Old: 600.00, New: 700.00
End Method Modifications

