Sample 2,,
Wavelength (nm),Intensity (a.u.),
350,0.8889166117,
351.0599976,0.6195498705,
351.9599915,0.6711838841,
353.0299988,0.6426734924,
353.9299927,0.7889795303,
355,0.8898211122,
356.0599976,0.7356969118,
356.9599915,0.8294122815,
358.0299988,0.5646709204,
358.9299927,0.7132667899,
360,0.842915535,
361.0700073,0.7031798959,
362,0.6096680164,
363.0700073,0.5069307089,
364,0.4138282239,
365.0700073,0.5724280477,
366,0.43617782,
367.0700073,0.493206501,
368,0.5916402936,
369.0700073,0.7173372507,
370,0.7358236313,
371.0599976,0.6465347409,
371.9599915,0.8021175861,
373.0299988,0.8969041109,
373.9299927,0.9210402966,
375,1.199797988,
376.0599976,1.364021182,
376.9599915,1.712794781,
378.0299988,1.690805912,
378.9299927,1.862735629,
380,1.970553756,
381.0700073,2.125139713,
382,1.946093202,
383.0700073,2.298925638,
384,2.333262205,
385.0700073,1.939648271,
386,2.199306011,
387.0700073,2.733129501,
388,2.694596291,
389.0700073,3.126973867,
390,3.70094943,
391.0599976,3.887145281,
391.9599915,4.598662376,
393.0299988,5.538342953,
393.9299927,6.271096706,
395,7.716866016,
396.0599976,9.788611412,
396.9599915,12.11100864,
398.0299988,14.21543598,
398.9299927,17.07356453,
400,20.90501022,
401.0599976,26.63803101,
401.9599915,33.64326859,
403.0299988,41.08230591,
403.9299927,47.75244522,
405,56.5292778,
406.0599976,63.82735062,
406.9599915,67.13645172,
408.0299988,70.63518524,
408.9299927,73.92383575,
410,78.48525238,
411.0599976,82.88316345,
411.9599915,88.84983826,
413.0299988,94.56782532,
413.9299927,100.3443146,
415,103.7357178,
416.0599976,107.7992172,
416.9599915,108.5521698,
418.0299988,110.8067703,
418.9299927,113.3135223,
420,117.6926956,
421.0599976,123.3619156,
421.9599915,128.3410339,
423.0299988,139.1492767,
423.9299927,146.490097,
425,156.6989899,
426.0599976,169.3144684,
426.9599915,177.4941101,
428.0299988,187.5060272,
428.9299927,203.4489136,
430,218.3746796,
431.0400085,230.7567596,
431.9400024,239.8519135,
432.980011,248.0937653,
434.019989,250.2639618,
435.0700073,257.9842834,
435.9700012,255.146347,
437.0100098,255.2293854,
438.0499878,258.6828308,
438.9500122,257.7347107,
440,257.5645752,
441.0599976,259.5708313,
441.9599915,259.208374,
443.0299988,259.6886292,
443.9299927,261.2489014,
445,260.3507996,
446.0599976,260.7667542,
446.9599915,258.9204102,
448.0299988,262.5351868,
448.9299927,265.1457825,
450,269.3641357,
451.0599976,274.4351807,
451.9599915,278.7237244,
453.0299988,283.9935913,
453.9299927,288.3234863,
455,295.1420288,
456.0599976,303.184021,
456.9599915,308.3426819,
458.0299988,310.9226074,
458.9299927,316.5174255,
460,321.628479,
461.0400085,324.471344,
461.9400024,327.655304,
462.980011,322.4577942,
464.019989,322.2171631,
465.0700073,317.4705505,
465.9700012,313.6776733,
467.0100098,311.4084778,
468.0499878,307.1241455,
468.9500122,301.9240417,
470,296.8857727,
471.0400085,295.321106,
471.9400024,289.2201843,
472.980011,284.9310303,
474.019989,282.4780579,
475.0700073,275.0723572,
475.9700012,272.8005066,
477.0100098,268.0461426,
478.0499878,263.7419739,
478.9500122,260.0546265,
480,257.4100037,
481.0400085,253.2043762,
481.9400024,250.3734894,
482.980011,251.2021637,
484.019989,247.1597748,
485.0700073,245.7661896,
485.9700012,242.4468079,
487.0100098,240.7667084,
488.0499878,236.4500122,
488.9500122,233.7300873,
490,233.8802948,
491.0400085,231.1680756,
491.9400024,227.2467804,
492.980011,223.1482239,
494.019989,220.4539795,
495.0700073,216.8630371,
495.9700012,210.6051178,
497.0100098,206.7229309,
498.0499878,201.2497253,
498.9500122,198.3849335,
500,192.065918,
501.0400085,190.1687622,
501.9400024,183.6885223,
502.980011,176.9764252,
504.019989,175.2801514,
505.0700073,170.493576,
505.9700012,166.9875336,
507.0100098,161.2311554,
508.0499878,158.3458557,
508.9500122,154.5893707,
510,151.6609344,
511.0400085,147.9550781,
511.9400024,143.4196167,
512.9799805,140.3417206,
514.0200195,139.1111755,
515.0700073,134.3109436,
515.9699707,132.4395752,
517.0100098,127.8281097,
518.0499878,125.5593414,
518.9500122,122.4221268,
520,121.4627991,
521.0200195,118.4734497,
522.0499878,114.1885986,
522.9400024,112.9563293,
523.9699707,109.7693329,
525,106.697197,
526.0200195,105.8767242,
527.0499878,103.2291107,
527.9400024,102.8843155,
528.9699707,98.73330688,
530,96.35684204,
531.039978,94.82592773,
531.9400024,91.24209595,
532.9799805,90.14015198,
534.0200195,87.45363617,
535.0700073,84.89465332,
535.9699707,82.36798096,
537.0100098,80.67063904,
538.0499878,78.2824173,
538.9500122,76.28827667,
540,73.85935211,
541.0200195,72.64473724,
542.0499878,68.79866791,
542.9400024,67.67162323,
543.9699707,65.90642548,
545,64.47364044,
546.0200195,62.52965927,
547.0499878,60.17845917,
547.9400024,58.80058289,
548.9699707,57.76511765,
550,55.32607269,
551.0200195,54.26306915,
552.0499878,53.07344437,
552.9400024,51.48797989,
553.9699707,50.21726227,
555,48.39067078,
556.0200195,47.18228149,
557.0499878,45.67066956,
557.9400024,44.67321396,
558.9699707,43.24701691,
560,42.05442429,
561.0200195,41.06686783,
562.0499878,39.85848236,
562.9400024,39.88356018,
563.9699707,38.54969025,
565,36.89605713,
566.0200195,36.53093338,
567.0499878,34.7094841,
567.9400024,33.66913223,
568.9699707,33.34244919,
570,31.85564232,
571.0100098,32.19499588,
572.0200195,30.21920586,
573.039978,29.70155907,
574.0499878,28.93317986,
575.0700073,27.54982376,
575.9400024,27.5340538,
576.9500122,26.71391678,
577.9699707,25.16753769,
578.9799805,24.6610508,
580,24.05747986,
581.0200195,23.27760315,
582.0499878,22.18506813,
582.9400024,22.48445129,
583.9699707,21.45543289,
585,21.36690903,
586.0200195,20.34314919,
587.0499878,19.27890205,
587.9400024,19.12783432,
588.9699707,18.38453484,
590,18.23233223,
591.0100098,17.91231155,
592.0200195,16.79338455,
593.039978,16.23474503,
594.0499878,16.30599594,
595.0700073,15.28822041,
595.9400024,14.95832443,
596.9500122,14.70373631,
597.9699707,14.17475796,
598.9799805,13.6837225,
600,12.82580376,
601.0100098,13.04252148,
602.0200195,12.57282162,
603.039978,12.22890949,
604.0499878,11.6277132,
605.0700073,11.5721283,
605.9400024,11.20680046,
606.9500122,10.92234993,
607.9699707,10.52752972,
608.9799805,10.18130875,
610,9.543341637,
611.0100098,9.209998131,
612.0200195,9.572627068,
613.039978,9.043886185,
614.0499878,8.582809448,
615.0700073,8.476299286,
615.9400024,8.20751667,
616.9500122,7.773008347,
617.9699707,7.658876419,
618.9799805,7.344957352,
620,7.158483982,
621.0100098,6.993120193,
622.0200195,6.827837467,
623.039978,6.712690353,
624.0499878,6.413565636,
625.0700073,6.100407124,
625.9400024,6.093213558,
626.9500122,5.759468555,
627.9699707,5.709452152,
628.9799805,5.869044781,
630,5.438466072,
631,5.232709408,
632,5.198226929,
633,4.985803127,
634,4.982683182,
635,4.383914948,
636,4.541625977,
637,4.436173916,
638,4.184307098,
639,4.103519917,
640,3.859688997,
641.0100098,3.798943281,
642.0200195,3.474980116,
643.039978,3.756039619,
644.0499878,3.587903738,
645.0700073,3.080232859,
645.9400024,3.217262745,
646.9500122,3.215903997,
647.9699707,3.14836669,
648.9799805,2.887573957,
650,2.874156475,

Sample 2,
Sample 2
Collection Time: 23/05/2023 2:21:58 PM
Operator Name  :
Scan Software Version: 1.2(147)
Parameter List :
Instrument                        Cary Eclipse
Instrument Serial Number          test
Data mode                         Fluorescence
Scan mode                         Emission
X Mode                            Wavelength (nm)
Start (nm)                        350.00
Stop (nm)                         650.00
Ex. Wavelength (nm)               340.00
Ex. Slit (nm)                     5
Em. Slit (nm)                     5
Scan rate (nm/min)                600.00
Data interval (nm)                1.0000
Averaging Time (s)                0.1000
Excitation filter                 Auto
Emission filter                   Open
PMT voltage (V)                   Medium
Corrected spectra                 OFF
Method Log     :
Method Name    : Default
Date/Time stamp: 23/05/2023 2:20:55 PM
Method Modifications:
Overlayed Graphs Changed: 23/05/2023 2:21:20 PM, Old:OFF, New:ON
Excitation Wavelength Changed: 23/05/2023 2:21:20 PM, Old: 350.00, New: 340.00
Emission Wavelength Changed: 23/05/2023 2:21:20 PM, Old: 400.00, New: 350.00
Stop Wavelength Changed: 23/05/2023 2:21:56 PM, Old: 600.00, New: 650.00
End Method Modifications

