Sample 7,,
Wavelength (nm),Intensity (a.u.),
370,0.9491619468,
371.0599976,0.5389221311,
371.9599915,0.5050814152,
373.0299988,0.4819748998,
373.9299927,0.5185123682,
375,0.5878495574,
376.0599976,0.688382268,
376.9599915,0.5366631746,
378.0299988,0.831934154,
378.9299927,0.8454616666,
380,0.9706305861,
381.0700073,1.124545217,
382,1.152938485,
383.0700073,1.153954148,
384,1.181845069,
385.0700073,1.160407543,
386,1.170722842,
387.0700073,1.224378705,
388,1.085922718,
389.0700073,1.02658391,
390,1.035976648,
391.0599976,0.9650676847,
391.9599915,1.145649195,
393.0299988,0.961545825,
393.9299927,1.096341968,
395,1.058299899,
396.0599976,1.078014612,
396.9599915,1.089981437,
398.0299988,1.251148224,
398.9299927,1.376705885,
400,1.511129498,
401.0599976,1.620363355,
401.9599915,1.781898618,
403.0299988,1.989705682,
403.9299927,2.216193199,
405,2.185349941,
406.0599976,2.3724792,
406.9599915,2.234663486,
408.0299988,2.080169439,
408.9299927,2.04073596,
410,1.743596315,
411.0599976,1.628457427,
411.9599915,1.520840168,
413.0299988,1.486442089,
413.9299927,1.44346559,
415,1.467645049,
416.0599976,1.282767177,
416.9599915,1.322519541,
418.0299988,1.355850577,
418.9299927,1.288741231,
420,1.368752718,
421.0599976,1.359449863,
421.9599915,1.314436436,
423.0299988,1.240962505,
423.9299927,1.312243223,
425,1.331338882,
426.0599976,1.345618725,
426.9599915,1.360237598,
428.0299988,1.330165505,
428.9299927,1.40744257,
430,1.256190896,
431.0400085,1.317006707,
431.9400024,1.335227489,
432.980011,1.354971766,
434.019989,1.219220638,
435.0700073,1.353835702,
435.9700012,1.299390674,
437.0100098,1.317080975,
438.0499878,1.243423462,
438.9500122,1.229197502,
440,1.343724728,
441.0599976,1.239630103,
441.9599915,1.255378723,
443.0299988,1.214612722,
443.9299927,1.146634817,
445,1.249756575,
446.0599976,1.20862627,
446.9599915,1.242811322,
448.0299988,1.153500795,
448.9299927,1.192287803,
450,1.157173276,
451.0599976,1.218573689,
451.9599915,1.16552794,
453.0299988,1.101685524,
453.9299927,1.13215065,
455,1.199667811,
456.0599976,1.092375994,
456.9599915,1.190494537,
458.0299988,1.00549221,
458.9299927,1.020112991,
460,0.9653766751,
461.0400085,1.080266953,
461.9400024,1.067553282,
462.980011,0.9618026614,
464.019989,1.043083191,
465.0700073,0.9512937665,
465.9700012,0.9752444029,
467.0100098,0.9446335435,
468.0499878,0.8004289269,
468.9500122,0.8882014751,
470,0.910942018,
471.0400085,0.8142791986,
471.9400024,0.8603134751,
472.980011,0.827814579,
474.019989,0.7923930287,
475.0700073,0.8218378425,
475.9700012,0.727199614,
477.0100098,0.6936202645,
478.0499878,0.6846449375,
478.9500122,0.710314095,
480,0.804017067,
481.0400085,0.5634238124,
481.9400024,0.64555794,
482.980011,0.7331830859,
484.019989,0.7193373442,
485.0700073,0.6288625002,
485.9700012,0.6990374327,
487.0100098,0.6763403416,
488.0499878,0.5556993484,
488.9500122,0.5602707267,
490,0.534694016,
491.0400085,0.5331561565,
491.9400024,0.5519356132,
492.980011,0.5209777951,
494.019989,0.456564486,
495.0700073,0.4630332291,
495.9700012,0.4933051467,
497.0100098,0.4738865495,
498.0499878,0.4772799611,
498.9500122,0.4552785158,
500,0.4584527314,
501.0400085,0.5097305179,
501.9400024,0.4503369927,
502.980011,0.4172989428,
504.019989,0.3768400252,
505.0700073,0.3625651598,
505.9700012,0.3748584688,
507.0100098,0.4187349677,
508.0499878,0.4117112458,
508.9500122,0.3697997034,
510,0.4335170686,
511.0400085,0.2645461261,
511.9400024,0.3663870394,
512.9799805,0.3194532096,
514.0200195,0.4262120426,
515.0700073,0.3618899882,
515.9699707,0.2434033751,
517.0100098,0.2164418548,
518.0499878,0.2564179897,
518.9500122,0.328135252,
520,0.2469592988,
521.0200195,0.2968691587,
522.0499878,0.2212271243,
522.9400024,0.3024277389,
523.9699707,0.279350698,
525,0.1216762066,
526.0200195,0.1889116466,
527.0499878,0.2576968074,
527.9400024,0.3051953614,
528.9699707,0.313229233,
530,0.2339675575,
531.039978,0.2060203701,
531.9400024,0.1591825634,
532.9799805,0.2153349221,
534.0200195,0.1497725695,
535.0700073,0.1802606732,
535.9699707,0.1435695887,
537.0100098,0.1548826694,
538.0499878,0.1950869262,
538.9500122,0.1404625922,
540,0.2048838288,
541.0200195,0.191092059,
542.0499878,0.1419576705,
542.9400024,0.1929458976,
543.9699707,0.2118062377,
545,0.1809926331,
546.0200195,0.2013412416,
547.0499878,0.1439939439,
547.9400024,0.08422858268,
548.9699707,0.1700614542,
550,0.1258197874,
551.0200195,0.08431315422,
552.0499878,0.1427381933,
552.9400024,0.1585275829,
553.9699707,0.1085431203,
555,0.1295040697,
556.0200195,0.1582992226,
557.0499878,0.09450828284,
557.9400024,0.1247271597,
558.9699707,0.1979323775,
560,0.0728231892,
561.0200195,0.1102666035,
562.0499878,0.08034064621,
562.9400024,0.1558020711,
563.9699707,0.04561280832,
565,0.1094237268,
566.0200195,0.08589723706,
567.0499878,0.06089809537,
567.9400024,0.0717760548,
568.9699707,0.105897747,
570,0.1059779078,
571.0100098,0.07198330015,
572.0200195,0.1236820072,
573.039978,0.04654590413,
574.0499878,0.1504521519,
575.0700073,0.05095671117,
575.9400024,0.09649249911,
576.9500122,0.1060324311,
577.9699707,0.06301097572,
578.9799805,0.09868896008,
580,0.00787494611,
581.0200195,0.03141838312,
582.0499878,0.07721530646,
582.9400024,0,
583.9699707,0.02336903475,
585,0.07683382928,
586.0200195,0.06991418451,
587.0499878,0.1169773117,
587.9400024,0.1554243118,
588.9699707,0.03806768358,
590,0.02352682874,
591.0100098,0.07049948722,
592.0200195,0.06368818134,
593.039978,-0.008351986296,
594.0499878,0.03958608955,
595.0700073,0.05954659358,
595.9400024,0.1259530336,
596.9500122,0.05515328795,
597.9699707,0.03274957091,
598.9799805,0.03295544535,
600,0.145580411,
601.0100098,0.09327343106,
602.0200195,0.1127835885,
603.039978,0.02493952215,
604.0499878,0.07182474434,
605.0700073,0.007969968952,
605.9400024,0.01618790813,
606.9500122,0.07215816528,
607.9699707,0.03248387948,
608.9799805,0.1257861555,
610,0.0487242341,
611.0100098,-0.009553379379,
612.0200195,0.02466415614,
613.039978,0,
614.0499878,-0.008019889705,
615.0700073,0.04250941426,
615.9400024,0.1148727387,
616.9500122,0.09832600504,
617.9699707,0.0757824555,
618.9799805,0.07987220585,
620,0.0255303923,
621.0100098,0.008293179795,
622.0200195,0.04982395843,
623.039978,0.07131459564,
624.0499878,0.05052929372,
625.0700073,-0.009237363003,
625.9400024,0.01744728722,
626.9500122,0.07541351765,
627.9699707,0.08780942112,
628.9799805,0.0744484663,
630,-0.02487067319,
631,0.08472421765,
632,-0.009117099456,
633,0.008198939264,
634,0.05766015127,
635,-0.01648532785,
636,0,
637,0.03436484933,
638,0.07085610181,
639,0.08892337978,
640,0.0699474588,
641.0100098,0.01839638688,
642.0200195,0.0157103017,
643.039978,0.09067154676,
644.0499878,0.0459918119,
645.0700073,0.0558610186,
645.9400024,0.05068038404,
646.9500122,-0.03240466863,
647.9699707,0.08180561662,
648.9799805,0.0310887266,
650,0.0403066501,
651,-0.007768438198,
652,0.06063073128,
653,0.06384320557,
654,0.01529075392,
655,0.03193051741,
656,-0.008685304783,
657,0.01517485175,
658,-0.01609049365,
659,0.02435717359,
660,-0.0246564541,
661,0.08363302052,
662,0.01675701514,
663,0.03222168237,
664,0.02358509041,
665,0.07657260448,
666,0.04647740349,
667,0.09846961498,
668,-0.01549270749,
669,0.06504223496,
670,-0.02347656712,
670.9799805,-0.05621857941,
671.9699707,0.07511078566,
672.9500122,0.08638223261,
673.9400024,0.02429287508,
675.0700073,0.008505354635,
676.0499878,0,
677.039978,0.09770236909,
678.0200195,0.1332977861,
679.0100098,0.01675027795,
680,0.02564190328,
681,0.09597312659,
682,0.02327782847,
683,0.09331404418,
684,0.0154759232,
685,0.01544186845,
686,-0.0235133674,
687,0.1106824353,
688,-0.02469705045,
689,-0.0775167048,
690,0.007823318243,
690.9799805,0.0918956399,
691.9699707,0.07055116445,
692.9500122,0.06509198248,
693.9400024,-0.02640171163,
695.0700073,0.007686750032,
696.0499878,0.01541449595,
697.039978,0.0579662174,
698.0200195,0.0239158161,
699.0100098,-0.02402671799,
700,0.0166626405,

Sample 7,
Sample 7
Collection Time: 31/05/2023 3:21:22 PM
Operator Name  :
Scan Software Version: 1.2(147)
Parameter List :
Instrument                        Cary Eclipse
Instrument Serial Number          test
Data mode                         Fluorescence
Scan mode                         Emission
X Mode                            Wavelength (nm)
Start (nm)                        370.00
Stop (nm)                         700.00
Ex. Wavelength (nm)               360.00
Ex. Slit (nm)                     5
Em. Slit (nm)                     5
Scan rate (nm/min)                600.00
Data interval (nm)                1.0000
Averaging Time (s)                0.1000
Excitation filter                 Auto
Emission filter                   Open
PMT voltage (V)                   Medium
Corrected spectra                 OFF
Method Log     :
Method Name    : Default
Date/Time stamp: 31/05/2023 3:03:02 PM
Method Modifications:
Overlayed Graphs Changed: 31/05/2023 3:07:04 PM, Old:OFF, New:ON
Excitation Wavelength Changed: 31/05/2023 3:07:04 PM, Old: 350.00, New: 358.00
Emission Wavelength Changed: 31/05/2023 3:07:04 PM, Old: 400.00, New: 368.00
Stop Wavelength Changed: 31/05/2023 3:07:33 PM, Old: 600.00, New: 700.00
Scan mode: Changed: 31/05/2023 3:10:49 PM, Old:Emission, New:Excitation
User Delta Stop Changed: 31/05/2023 3:10:49 PM, Old: 450.00, New: 462.00
User Delta Increment Changed: 31/05/2023 3:10:49 PM, Old:  10.00, New:   0.15
Excitation Wavelength Changed: 31/05/2023 3:10:49 PM, Old: 358.00, New: 220.00
Emission Wavelength Changed: 31/05/2023 3:10:49 PM, Old: 368.00, New: 462.00
Stop Wavelength Changed: 31/05/2023 3:10:49 PM, Old: 700.00, New: 452.00
Scan mode: Changed: 31/05/2023 3:20:22 PM, Old:Excitation, New:Emission
Excitation Wavelength Changed: 31/05/2023 3:20:22 PM, Old: 220.00, New: 360.00
Emission Wavelength Changed: 31/05/2023 3:20:22 PM, Old: 462.00, New: 370.00
Stop Wavelength Changed: 31/05/2023 3:20:22 PM, Old: 452.00, New: 700.00
End Method Modifications

