Sample 8,,
Wavelength (nm),Intensity (a.u.),
220,3.819036484,
220.9299927,4.651162624,
222.0299988,5.368686199,
222.9600067,3.918495417,
224.0599976,4.648501873,
225,5.162089825,
225.9299927,5.964447498,
227.0299988,5.737388134,
227.9600067,5.547025681,
229.0599976,5.300074577,
230,5.630913258,
230.9299927,5.431675434,
232.0299988,5.717755318,
232.9600067,5.693439007,
234.0599976,5.535478592,
235,5.734282017,
235.9299927,5.851948738,
237.0299988,5.769072056,
237.9600067,5.709049702,
239.0599976,5.547120094,
240,5.400149345,
240.9299927,5.321095467,
242.0299988,5.108437538,
242.9600067,5.396127701,
244.0599976,5.495252609,
245,5.634309292,
245.9299927,5.325372219,
247.0299988,5.441084385,
247.9600067,5.471997738,
249.0599976,5.426875591,
250,5.80569458,
250.9299927,5.834878445,
252.0299988,6.351099491,
252.9600067,6.36118269,
254.0599976,6.919107437,
255,6.886153221,
255.9299927,7.487985134,
257.0299988,7.656648159,
257.9599915,7.581380367,
259.0599976,7.278244972,
260,7.02319479,
261.0700073,6.78793478,
262,6.652137756,
263.0700073,6.512767792,
264,7.161645412,
265.0700073,7.137184143,
266,7.433346748,
267.0700073,7.303133011,
268,7.445809841,
269.0700073,7.507533073,
270,7.256906033,
270.9299927,7.040235519,
272.0299988,6.992572784,
272.9599915,6.900877953,
274.0599976,6.346734524,
275,6.365824223,
275.9299927,6.043728352,
277.0299988,5.75357151,
277.9599915,5.462852955,
279.0599976,5.312582016,
280,5.042708397,
280.9299927,4.940083504,
282.0299988,4.814465046,
282.9599915,4.494436264,
284.0599976,4.366218567,
285,4.266708851,
285.9299927,4.134993553,
287.0299988,4.16280508,
287.9599915,4.00525713,
289.0599976,3.684280634,
290,3.64403677,
291.0700073,3.901693583,
292,3.880848408,
293.0700073,3.841605186,
294,4.064464092,
295.0700073,3.892407656,
296,4.055371761,
297.0700073,4.035350323,
298,4.203141689,
299.0700073,4.139647484,
300,4.351640224,
300.9299927,4.594278812,
302.0299988,4.729126453,
302.9599915,4.728132248,
304.0599976,4.739136219,
305,4.95253849,
305.9299927,5.064655304,
307.0299988,5.459189892,
307.9599915,5.722315788,
309.0599976,5.43736887,
310,5.512186527,
311.0700073,5.479394436,
312,5.566796303,
313.0700073,5.65754509,
314,5.282531738,
315.0700073,5.510989666,
316,5.265900135,
317.0700073,5.221669197,
318,5.358552456,
319.0700073,4.905583382,
320,4.642813206,
321.0700073,4.285735607,
322,3.591599941,
323.0700073,3.474350929,
324,3.120703936,
325.0700073,2.358669043,
326,2.402160645,
327.0700073,2.271116495,
328,1.749174953,
329.0700073,1.475281119,
330,1.143928409,
330.9299927,1.081725121,
332.0299988,1.010234833,
332.9599915,0.8268668056,
334.0599976,0.6851060987,
335,0.7178990841,
335.9299927,0.5875536799,
337.0299988,0.4362790287,
337.9599915,0.3780133426,
339.0599976,0.5563009381,
340,0.4581213892,
341.0700073,0.3525552452,
342,0.594376266,
343.0700073,0.4984593391,
344,0.4982773662,
345.0700073,0.4380201697,
346,0.4171101451,
347.0700073,0.4132902324,
348,0.5977107882,
349.0700073,0.450520426,
350,0.4080369174,
351.0700073,0.4703921676,
352,0.4231637418,
353.0700073,0.4809839725,
354,0.649184823,
355.0700073,0.5479674339,
356,0.498542726,
357.0700073,0.5989025831,
358,0.4664495587,
359.0700073,0.6415634155,
360,0.5605246425,
361.0700073,0.6600397825,
362,0.5822948813,
363.0700073,0.7022846341,
364,0.9119557142,
365.0700073,1.660141945,
366,2.445821524,
367.0700073,2.90593338,
368,3.323502779,
369.0700073,3.038394213,
370,2.311206102,
371.0599976,1.601358414,
371.9599915,0.9877225161,
373.0299988,0.9156034589,
373.9299927,0.7954500318,
375,0.7912977934,
376.0599976,0.6559108496,
376.9599915,0.6938205361,
378.0299988,0.7852628827,
378.9299927,0.7784608006,
380,0.8346720934,
381.0700073,0.7848433852,
382,0.8806618452,
383.0700073,0.9281742573,
384,0.9865384698,
385.0700073,0.9065616131,
386,0.9755183458,
387.0700073,1.058054924,
388,0.8724442124,
389.0700073,0.9390081167,
390,1.030977845,
391.0700073,0.9807280898,
392,1.016793489,
393.0700073,1.010423303,
394,1.000283718,
395.0700073,0.8663173318,
396,1.032099724,
397.0700073,0.9967824221,
398,0.9780021906,
399.0700073,1.201227307,
400,1.213971496,
401.0599976,1.299592733,
401.9599915,1.282398701,
403.0299988,1.194257379,
403.9299927,1.306611896,
405,1.294153094,
406.0599976,1.415459037,
406.9599915,1.477931619,
408.0299988,1.475847244,
408.9299927,1.488433957,
410,1.501437068,
411.0700073,1.473839402,
412,1.368707418,
413.0700073,1.465029478,
414,1.371704221,
415.0700073,1.265022039,
416,1.272766471,
417.0700073,1.111277223,
418,1.033126235,
419.0700073,0.9398336411,
420,0.9301932454,
421.0599976,0.8465330601,
421.9599915,0.7496861219,
423.0299988,0.7207632065,
423.9299927,0.7034870386,
425,0.5875990987,
426.0599976,0.5846096277,
426.9599915,0.5342262387,
428.0299988,0.4851174355,
428.9299927,0.5312376022,
430,0.454719007,
431.0599976,0.4930547476,
431.9599915,0.5153546929,
433.0299988,0.4846254587,
433.9299927,0.4797944129,
435,0.4641275108,
436.0599976,0.4891083837,
436.9599915,0.506419301,
438.0299988,0.5490620732,
438.9299927,0.5448520184,
440,0.5417846441,
441.0599976,0.5921906233,
441.9599915,0.5610895753,
443.0299988,0.5951237082,
443.9299927,0.5634230375,
445,0.5437409282,
446.0599976,0.6031653285,
446.9599915,0.6133207083,
448.0299988,0.5404701233,
448.9299927,0.6092536449,
450,0.6039597988,
451.0599976,0.6997992396,
451.9599915,0.5859276652,
453.0299988,0.6905123591,
453.9299927,0.7192814946,
455,0.6691389084,
456.0599976,0.756426096,
456.9599915,0.7575579286,
458.0299988,0.7687013149,
458.9299927,0.748454392,
460,0.7324056625,
461.0599976,0.740172267,
461.9599915,0.7857717276,
463.0299988,0.7773458958,
463.9299927,0.8891686797,
465,0.8382665515,
466.0599976,0.8343813419,
466.9599915,0.9057913423,
468.0299988,0.9527338147,
468.9299927,0.9093830585,
470,1.006434202,
471.0400085,0.9908925295,
471.9400024,1.028975368,
472.980011,1.065370202,
474.019989,0.9804210663,
475.0700073,1.033163071,
475.9700012,1.100998282,
477.0100098,1.013127446,
478.0499878,1.076906204,
478.9500122,1.126156569,
480,1.200128913,
481.0599976,1.125030875,
481.9599915,1.081357837,
483.0299988,1.022397637,
483.9299927,1.052220225,
485,1.013398528,
486.0599976,0.9232729673,
486.9599915,0.9987465143,
488.0299988,0.9575391412,
488.9299927,1.007636309,
490,0.9789152741,
491.0400085,0.9466304779,
491.9400024,0.9993889928,
492.980011,1.039462805,
494.019989,0.9581817389,
495.0700073,1.039922714,
495.9700012,0.9506766796,
497.0100098,0.9898785353,
498.0499878,0.9364730716,
498.9500122,1.021682382,
500,1.014264941,
501.0599976,0.9276437759,
501.9599915,1.013974786,
503.0299988,0.957519114,
503.9299927,1.159818769,
505,0.8977746964,
506.0599976,1.081665754,
506.9599915,1.179390311,
508.0299988,1.017558098,
508.9299927,1.164351106,
510,1.120898128,
511.0400085,1.22357738,
511.9400024,1.262215734,
512.9799805,1.17425561,
514.0200195,1.263660789,
515.0700073,1.237982869,
515.9699707,1.300930023,
517.0100098,1.210933566,
518.0499878,1.274574876,
518.9500122,1.314895868,
520,1.421257019,
521.039978,1.217852235,
521.9400024,1.371816874,
522.9799805,1.363611579,
524.0200195,1.374060154,
525.0700073,1.477614522,
525.9699707,1.533815861,
527.0100098,1.634413838,
528.0499878,1.574812055,
528.9500122,1.524900913,
530,1.566009641,
531.0200195,1.517413139,
532.0499878,1.580753326,
532.9400024,1.617559075,
533.9699707,1.667577505,
535,1.679140925,
536.0200195,1.587588549,
537.0499878,1.757876515,
537.9400024,1.82889986,
538.9699707,1.9784621,
540,1.939366102,
541.039978,2.006104946,
541.9400024,1.960184216,
542.9799805,1.917416215,
544.0200195,2.187022686,
545.0700073,2.095392704,
545.9699707,2.355148792,
547.0100098,2.309825897,
548.0499878,2.406753063,
548.9500122,2.506078243,
550,2.612029552,
551.0200195,2.936030149,
552.0499878,3.064883232,
552.9400024,3.195271492,
553.9699707,3.399132967,
555,3.318693638,
556.0200195,3.538868666,
557.0499878,3.700490236,
557.9400024,4.126248837,
558.9699707,3.993910789,
560,4.381042004,
561.039978,4.39257288,
561.9400024,4.761032581,
562.9799805,4.982481956,
564.0200195,5.189080238,
565.0700073,5.354026318,
565.9699707,5.364860058,
567.0100098,5.522387981,
568.0499878,5.909709454,
568.9500122,5.647211552,
570,6.028635979,
571.0200195,6.40099144,
572.0499878,6.513514996,
572.9400024,6.505688667,
573.9699707,6.714930058,
575,6.690652847,
576.0200195,6.777205467,
577.0499878,6.637737274,
577.9400024,7.035734177,
578.9699707,6.780780792,
580,7.432320118,
581.0200195,7.885034084,
582.0499878,7.431893349,
582.9400024,7.367545605,
583.9699707,7.631078243,
585,8.103574753,
586.0200195,7.860633373,
587.0499878,8.510235786,
587.9400024,8.627830505,
588.9699707,9.099038124,
590,8.69107151,
591.0200195,9.556196213,
592.0499878,9.484947205,
592.9400024,10.71747589,
593.9699707,10.85620213,
595,11.19732857,
596.0200195,11.26882935,
597.0499878,12.19534874,
597.9400024,12.28646755,
598.9699707,12.70050812,
600,13.20538235,
601.0100098,13.99736118,
602.0200195,15.2096653,
603.039978,16.47201538,
604.0499878,16.92399025,
605.0700073,16.75657272,
605.9400024,17.35373688,
606.9500122,17.94174194,
607.9699707,19.01718521,
608.9799805,20.28354645,
610,20.27420044,
611.0200195,21.01315689,
612.0499878,21.11054802,
612.9400024,21.94546127,
613.9699707,22.94395828,
615,24.32208061,
616.0200195,24.42573738,
617.0499878,24.79092026,
617.9400024,25.7082901,
618.9699707,25.62862587,
620,26.42480469,
621.0100098,26.84202576,
622.0200195,27.26127625,
623.039978,28.34645653,
624.0499878,27.60595703,
625.0700073,28.0592804,
625.9400024,27.2998333,
626.9500122,27.44234085,
627.9699707,26.71826553,
628.9799805,26.0610981,
630,25.69288254,
631.0100098,25.45422363,
632.0200195,25.71809387,
633.039978,25.79000092,
634.0499878,24.98758316,
635.0700073,24.44138336,
635.9400024,23.6502552,
636.9500122,23.15523338,
637.9699707,23.5695076,
638.9799805,22.69716835,
640,23.28855705,
641.0100098,22.8953743,
642.0200195,23.00613594,
643.039978,23.30164528,
644.0499878,23.06936455,
645.0700073,23.84196281,
645.9400024,24.15517044,
646.9500122,24.49032402,
647.9699707,24.86556435,
648.9799805,27.07761002,
650,26.460289,
651,28.29846382,
652,29.62575912,
653,30.6118412,
654,31.36134148,
655,34.5699501,
656,35.00957489,
657,38.20125198,
658,39.76337814,
659,40.20809174,
660,41.85351181,
661,43.78246689,
662,44.94551468,
663,47.45094681,
664,49.41599274,
665,53.48438263,
666,55.56571198,
667,58.13254547,
668,60.1759491,
669,60.68915176,
670,64.75409698,
671.0100098,66.96450043,
672.0200195,67.75689697,
673.039978,68.63320923,
674.0499878,71.15692902,
675.0700073,74.64276886,
675.9400024,75.21955109,
676.9500122,76.95816803,
677.9699707,78.73807526,
678.9799805,79.62693787,
680,81.34257507,
681,78.65216827,
682,77.95961761,
683,78.8259964,
684,77.36915588,
685,79.11000824,
686,78.88202667,
687,79.4085083,
688,74.38895416,
689,71.92694092,
690,71.24775696,
690.9799805,68.32751465,
691.9699707,67.17356873,
692.9500122,63.37956238,
693.9400024,60.6738205,
695.0700073,58.75663376,
696.0499878,55.43719101,
697.039978,51.82985687,
698.0200195,48.21383286,
699.0100098,44.57026672,
700,42.54346085,
701,39.09952545,
702,35.69047546,
703,32.13573837,
704,30.81783867,
705,27.8175602,
706,25.52762604,
707,23.55032158,
708,21.61211777,
709,19.64021492,
710,17.71826363,
710.9799805,15.96027565,
711.9699707,14.08120155,
712.9500122,13.50076675,
713.9400024,12.47231579,
715.0700073,10.87082958,
716.0499878,10.03956795,
717.039978,8.151633263,
718.0200195,8.149959564,
719.0100098,6.670924664,
720,5.868805885,
720.9799805,5.849777699,
721.9699707,5.487513542,
722.9500122,3.579455614,
723.9400024,4.006009102,
725.0700073,4.289679527,
726.0499878,3.293084383,
727.039978,2.328094959,
728.0200195,2.56563735,
729.0100098,1.538593054,
730,2.783165932,

Sample 8,
Sample 8
Collection Time: 4/05/2023 3:26:57 PM
Operator Name  :
Scan Software Version: 1.2(147)
Parameter List :
Instrument                        Cary Eclipse
Instrument Serial Number          test
Data mode                         Fluorescence
Scan mode                         Excitation
X Mode                            Wavelength (nm)
Start (nm)                        220.00
Stop (nm)                         730.00
Em. Wavelength (nm)               740.00
Ex. Slit (nm)                     5
Em. Slit (nm)                     5
Scan rate (nm/min)                600.00
Data interval (nm)                1.0000
Averaging Time (s)                0.1000
Excitation filter                 Auto
Emission filter                   Open
PMT voltage (V)                   Medium
Corrected spectra                 OFF
Method Log     :
Method Name    : Default
Date/Time stamp: 4/05/2023 1:48:54 PM
Method Modifications:
Overlayed Graphs Changed: 4/05/2023 1:49:21 PM, Old:OFF, New:ON
User Delta Stop Changed: 4/05/2023 1:51:19 PM, Old: 450.00, New: 530.00
User Delta Increment Changed: 4/05/2023 1:51:19 PM, Old:  10.00, New:   0.15
Excitation Wavelength Changed: 4/05/2023 1:51:19 PM, Old: 350.00, New: 530.00
Emission Wavelength Changed: 4/05/2023 1:51:19 PM, Old: 400.00, New: 540.00
Stop Wavelength Changed: 4/05/2023 1:51:19 PM, Old: 600.00, New: 800.00
Scan mode: Changed: 4/05/2023 1:52:47 PM, Old:Emission, New:Excitation
User Delta Stop Changed: 4/05/2023 1:52:47 PM, Old: 530.00, New: 610.00
Excitation Wavelength Changed: 4/05/2023 1:52:47 PM, Old: 530.00, New: 220.00
Emission Wavelength Changed: 4/05/2023 1:52:47 PM, Old: 540.00, New: 610.00
Stop Wavelength Changed: 4/05/2023 1:52:47 PM, Old: 800.00, New: 600.00
Scan mode: Changed: 4/05/2023 3:19:40 PM, Old:Excitation, New:Emission
Excitation Wavelength Changed: 4/05/2023 3:19:40 PM, Old: 220.00, New: 600.00
Stop Wavelength Changed: 4/05/2023 3:19:40 PM, Old: 600.00, New: 850.00
Scan mode: Changed: 4/05/2023 3:22:27 PM, Old:Emission, New:Excitation
User Delta Stop Changed: 4/05/2023 3:22:27 PM, Old: 610.00, New: 704.00
Excitation Wavelength Changed: 4/05/2023 3:22:27 PM, Old: 600.00, New: 220.00
Emission Wavelength Changed: 4/05/2023 3:22:27 PM, Old: 610.00, New: 704.00
Stop Wavelength Changed: 4/05/2023 3:22:27 PM, Old: 850.00, New: 700.00
User Delta Stop Changed: 4/05/2023 3:25:25 PM, Old: 704.00, New: 780.00
Emission Wavelength Changed: 4/05/2023 3:25:25 PM, Old: 704.00, New: 780.00
Stop Wavelength Changed: 4/05/2023 3:25:25 PM, Old: 700.00, New: 770.00
Emission Wavelength Changed: 4/05/2023 3:26:42 PM, Old: 780.00, New: 740.00
Stop Wavelength Changed: 4/05/2023 3:26:48 PM, Old: 770.00, New: 730.00
End Method Modifications

