Sample 16,,
Wavelength (nm),Intensity (a.u.),
220,0.5982367992,
220.9299927,0.1451884657,
222.0299988,-0.1187648475,
222.9600067,0.08014907688,
224.0599976,0.1829379946,
225,0.2782995999,
225.9299927,0.1229493767,
227.0299988,0.1465982497,
227.9600067,0.1571409404,
229.0599976,-0.009965470061,
230,0.05782129243,
230.9299927,0.1002958715,
232.0299988,0.0160766542,
232.9600067,0.1972870082,
234.0599976,0.1062619537,
235,0.05880815163,
235.9299927,0,
237.0299988,0.1173556671,
237.9600067,0.1236745268,
239.0599976,0.05694037303,
240,0.08332039416,
240.9299927,0.07935274392,
242.0299988,0.07246986032,
242.9600067,0.07773631811,
244.0599976,0.05513190106,
245,0.0303481631,
245.9299927,0.01728373207,
247.0299988,0.07561722398,
247.9600067,0.06991754472,
249.0599976,0.08723082393,
250,0.0224852711,
250.9299927,0.04285579547,
252.0299988,0,
252.9600067,0.05385174602,
254.0599976,0.0567474477,
255,0.0574965328,
255.9299927,0.06332685053,
257.0299988,-0.02693563141,
257.9599915,0.06074148044,
259.0599976,0.06111789867,
260,0.03104727529,
261.0700073,-0.001877690898,
262,0.09890565276,
263.0700073,0.0653693527,
264,0.0143834874,
265.0700073,0.0326583162,
266,0.102627255,
267.0700073,0.0458275117,
268,0.1053034663,
269.0700073,0.06592381001,
270,0.003365468001,
270.9299927,0.03204657882,
272.0299988,0.03583820537,
272.9599915,0.0399969928,
274.0599976,0.05937537178,
275,0.04972093925,
275.9299927,0.07798984647,
277.0299988,0.05207463726,
277.9599915,0.05370671675,
279.0599976,0.02430992201,
280,0.0680340156,
280.9299927,0.02456241101,
282.0299988,0.05477051437,
282.9599915,0.05876329914,
284.0599976,0.03991274536,
285,0.02781157754,
285.9299927,0.0598949939,
287.0299988,0.02704351768,
287.9599915,0.05444705114,
289.0599976,0.06908665597,
290,0.06649424881,
291.0700073,0.1187242046,
292,0.1707696915,
293.0700073,0.3276363611,
294,0.584051311,
295.0700073,0.8076294661,
296,0.9850113392,
297.0700073,1.204679728,
298,1.342386842,
299.0700073,1.476191044,
300,1.519792318,
300.9299927,1.586699009,
302.0299988,1.624434948,
302.9599915,1.617843151,
304.0599976,1.588055968,
305,1.663155556,
305.9299927,1.722352982,
307.0299988,1.785795093,
307.9599915,1.77887249,
309.0599976,1.776729941,
310,1.778327465,
311.0700073,1.8085742,
312,1.692148924,
313.0700073,1.675992966,
314,1.64243412,
315.0700073,1.629956484,
316,1.501427412,
317.0700073,1.455098033,
318,1.404827714,
319.0700073,1.517058134,
320,1.513097405,
321.0700073,1.576458216,
322,1.629251838,
323.0700073,1.56664288,
324,1.671117187,
325.0700073,1.517518282,
326,1.512719274,
327.0700073,1.52229774,
328,1.512277126,
329.0700073,1.520811677,
330,1.483417511,
330.9299927,1.396396995,
332.0299988,1.462818742,
332.9599915,1.425931931,
334.0599976,1.394876122,
335,1.378399849,
335.9299927,1.406357527,
337.0299988,1.275510192,
337.9599915,1.149132609,
339.0599976,1.01701808,
340,0.8002450466,
341.0700073,0.7955526114,
342,0.7504031658,
343.0700073,0.6233367324,
344,0.5224025846,
345.0700073,0.4648590088,
346,0.4154599011,
347.0700073,0.3603854477,
348,0.2169150412,
349.0700073,0.2478276789,
350,0.2389200777,
351.0700073,0.1874792278,
352,0.1916768998,
353.0700073,0.1191504598,
354,0.1147136316,
355.0700073,0.1344359964,
356,0.149144277,
357.0700073,0.1526280195,
358,0.1269302517,
359.0700073,0.1445718259,
360,0.1133755669,
361.0700073,0.09394279122,
362,0.09264234453,
363.0700073,0.09265685081,
364,0.08615852892,
365.0700073,0.06376805902,
366,0.07698281854,
367.0700073,0.138915509,
368,0.3982914984,
369.0700073,1.485076427,
370,3.272172689,
371.0599976,5.586975574,
371.9599915,6.986171722,
373.0299988,7.379584312,
373.9299927,6.443043709,
375,4.411937237,
376.0599976,2.253182173,
376.9599915,1.108289242,
378.0299988,0.4018317461,
378.9299927,0.1168584749,
380,0.03768337891,
381.0700073,0.02085928805,
382,0.03081965819,
383.0700073,-0.00704472186,
384,0.01706484705,
385.0700073,0.06059345603,
386,0.01139285788,
387.0700073,0.04745018482,
388,-0.006224092562,
389.0700073,0.02230818197,
390,0.02910818346,
391.0700073,0.03259895369,
392,0.01368655544,
393.0700073,0.02440701053,
394,0.03113814071,
395.0700073,0.01827714033,
396,0.008755659685,
397.0700073,0.01741146669,
398,0.001488505048,
399.0700073,0.02318689413,
400,0.008629579097,
401.0599976,-0.03722464666,
401.9599915,0.02348118089,
403.0299988,0.0107961921,
403.9299927,0.01568619348,
405,0.0253468398,
406.0599976,0.0114588961,
406.9599915,0.02552394196,
408.0299988,0.01181820408,
408.9299927,0.02324626222,
410,0.03829485551,
411.0700073,0.002516606357,
412,0.002483284334,
413.0700073,0.009533718228,
414,0.0262207184,
415.0700073,0.0364809446,
416,-0.003807953559,
417.0700073,0.01023994759,
418,0.001584524871,
419.0700073,-0.01553680003,
420,0.007394525688,
421.0599976,-0.005176318344,
421.9599915,0.004494206049,
423.0299988,-0.005733904894,
423.9299927,-0.005867993459,
425,-0.0006941373576,
426.0599976,-0.002195042791,
426.9599915,-0.01008128561,
428.0299988,-0.006677578669,
428.9299927,-0.01300191693,
430,0.009945740923,
431.0599976,0,
431.9599915,-0.008872626349,
433.0299988,0.0008586727781,
433.9299927,0.005415407009,
435,0.001697274274,
436.0599976,0.007691407576,
436.9599915,-0.02465910837,
438.0299988,-0.0008219757001,
438.9299927,0.007013130933,
440,-0.01448939368,
441.0599976,-0.01370590087,
441.9599915,-0.007707657292,
443.0299988,-0.0007556928322,
443.9299927,-0.001497861347,
445,-0.01314422209,
446.0599976,0.002923662309,
446.9599915,-0.004387513734,
448.0299988,-0.008419544436,
448.9299927,-0.01838812977,
450,-0.005067242309,
451.0599976,-0.01418316551,
451.9599915,0.001833851216,
453.0299988,0.002893931698,
453.9299927,0.01062805019,
455,0.01066406071,
456.0599976,0.02514874004,
456.9599915,0,
458.0299988,0.002687295666,
458.9299927,-0.005374928005,
460,-0.00813249778,
461.0599976,-0.000932715775,
461.9599915,-0.0009850081988,
463.0299988,0.01109262276,
463.9299927,0.01814873703,
465,-0.003514493816,
466.0599976,0.03511125594,
466.9599915,0.0115354592,
468.0299988,0.01432550885,
468.9299927,-0.01236139797,
470,-0.002795650624,
471.0400085,0.01129410695,
471.9400024,-0.03773119673,
472.980011,0.004486806691,
474.019989,-0.007516796235,
475.0700073,0.02232873812,
475.9700012,0.0164896287,
477.0100098,-0.02617119811,
478.0499878,0,
478.9500122,0.02478871122,
480,-0.006009261589,
481.0599976,0.004192907363,
481.9599915,-0.0009133137064,
483.0299988,-0.0106460778,
483.9299927,-0.008499583229,
485,-0.01247417461,
486.0599976,-0.01779337786,
486.9599915,0.005046724342,
488.0299988,-0.004323097877,
488.9299927,-0.005467961542,
490,-0.0009562478517,
491.0400085,0.005125429481,
491.9400024,0.01832645014,
492.980011,0.01372863539,
494.019989,0.002769745653,
495.0700073,0.03303065524,
495.9700012,-0.003146613482,
497.0100098,0.006815726403,
498.0499878,0.01904026605,
498.9500122,-0.03389098868,
500,0.01317190845,
501.0599976,0.029636655,
501.9599915,-0.02530935407,
503.0299988,0.01038098149,
503.9299927,0.01252439711,
505,0.06780206412,
506.0599976,0.0318929106,
506.9599915,0.01618712395,
508.0299988,0.04261614755,
508.9299927,-0.01369019039,
510,0.02695791423,
511.0400085,0.04575489834,
511.9400024,0.05197194964,
512.9799805,0.0195427388,
514.0200195,-0.00591533957,
515.0700073,0.05295000225,
515.9699707,0.03475420177,
517.0100098,-0.02598853782,
518.0499878,0.02757231146,
518.9500122,0.03042298742,
520,0.03108844161,
521.039978,0.03111877665,
521.9400024,0.005598247517,
522.9799805,0.02748501115,
524.0200195,0.01610101387,
525.0700073,0.02731042169,
525.9699707,0.01124333031,
527.0100098,0.001272820053,
528.0499878,0.01080731954,
528.9500122,0.03081586771,
530,0.004674983211,
531.0200195,0.02214065753,
532.0499878,-0.002583842492,
532.9400024,0.01197740249,
533.9699707,-0.01002914179,
535,-0.02088034526,
536.0200195,0.01589911059,
537.0499878,0.01134286635,
537.9400024,0.0339041613,
538.9699707,0.01130684558,
540,0.01714971848,
541.039978,-0.009045312181,
541.9400024,0.00146385876,
542.9799805,0.001498226076,
544.0200195,0.01280793082,
545.0700073,0.0240651127,
545.9699707,0.02679348923,
547.0100098,0.0324626565,
548.0499878,-0.03174603358,
548.9500122,0.08320444822,
550,0.06355982274,
551.0200195,0.03416623175,
552.0499878,0.01448297314,
552.9400024,-0.01777777821,
553.9699707,-0.03027303331,
555,0.04487495869,
556.0200195,0.02321678586,
557.0499878,0.03798145801,
557.9400024,0.1085380912,
558.9699707,0.1223109588,
560,0.05086229742,
561.039978,-0.02899338491,
561.9400024,0.01432618592,
562.9799805,0.03881919011,
564.0200195,0,
565.0700073,0.06451831758,
565.9699707,0.04417441413,
567.0100098,0.003326613456,
568.0499878,0.05931061134,
568.9500122,0,
570,0.003206166206,
571.0200195,0.04105842113,
572.0499878,0.06218441576,
572.9400024,0.02124940604,
573.9699707,0.08973216265,
575,0.03796519339,
576.0200195,0.05847554281,
577.0499878,-0.02403045632,
577.9400024,0.06943936646,
578.9699707,0.04263334721,
580,0.09147115052,
581.0200195,0.03067901358,
582.0499878,0.01813507825,
582.9400024,-0.06405504793,
583.9699707,-0.06123410165,
585,0.02359525487,
586.0200195,0.03284133598,
587.0499878,-0.05039283633,
587.9400024,0.1178075075,
588.9699707,0.09549491107,
590,0.07504590601,
591.0200195,0.03588409349,
592.0499878,0.008779130876,
592.9400024,0.03423529118,
593.9699707,0.01677965,
595,0.1204770878,
596.0200195,0.01148927864,
597.0499878,-0.03399240971,
597.9400024,0.03041166067,
598.9699707,-0.02004602551,
600,0.08676574379,
601.0100098,0.02093977667,
602.0200195,-0.008271469735,
603.039978,-0.04319399968,
604.0499878,0.01123633422,
605.0700073,0.0593546629,
605.9400024,0.02186644636,
606.9500122,0.02274950594,
607.9699707,0.07692899555,
608.9799805,0.01599731296,
610,0.08459657431,
611.0200195,0.04756695032,
612.0499878,0.06250306964,
612.9400024,0.137081489,
613.9699707,-0.03033535741,
615,0.02727545425,
616.0200195,0.0939444527,
617.0499878,0.1062675491,
617.9400024,-0.0513347052,
618.9699707,0.2364052683,
620,0.03521498665,
621.0100098,0.02339701168,
622.0200195,0.1346840709,
623.039978,-0.05214489251,
624.0499878,0.07881995291,
625.0700073,0.1317255497,
625.9400024,0.09657688439,
626.9500122,0.08251675963,
627.9699707,0.1251146942,
628.9799805,0.005375592504,
630,0.1006767675,
631.0100098,0.02344377339,
632.0200195,0.1213533357,
633.039978,0.1152730733,
634.0499878,0.07986778766,
635.0700073,0.06932408363,
635.9400024,0.1321461201,
636.9500122,0.07095172256,
637.9699707,0.1266784966,
638.9799805,0.1666793972,
640,0.0785433799,
641.0100098,-0.02935693599,
642.0200195,-0.01518176403,
643.039978,-0.007591342553,
644.0499878,0.05436048657,
645.0700073,0.05522072315,
645.9400024,0.02379233949,
646.9500122,0.06347946823,
647.9699707,0.0635182783,
648.9799805,0.007894466631,
650,0.03910343722,
651,0.05365752801,
652,0.09276580811,
653,0.04565514997,
654,0.1015038192,
655,0.1238984689,
656,0.1470542848,
657,0.09451314807,
658,0.06264878809,
659,0.05279447883,
660,0.1004977971,
661,0.238103345,
662,0.08728796244,
663,0.086007379,
664,0.1090137586,
665,0.04386926815,
666,-0.107848689,
667,0.2046609223,
668,-0.2002978325,
669,0.1146890149,
670,-0.1148694009,
671.0100098,0.1186921969,
672.0200195,-0.2001983821,
673.039978,0.281291306,
674.0499878,0.2719327807,
675.0700073,-0.1444919556,
675.9400024,0.1876612604,
676.9500122,0.04609059542,
677.9699707,-0.03473730013,
678.9799805,0.04191255197,
680,0.1827045232,
681,0.02482292987,
682,-0.119416222,
683,0.05347974598,
684,0.1321303099,
685,0.1299999952,
686,0.1738703549,
687,0.1850214899,
688,0.03100582771,
689,0.1117477342,
690,0.1553744078,
690.9799805,-0.1417018324,
691.9699707,0.1215214506,
692.9500122,-0.07956320047,
693.9400024,0.2461526245,
695.0700073,0.1201500893,
696.0499878,0.03395931795,
697.039978,-0.03842075169,
698.0200195,0.07329282165,
699.0100098,0.2315160483,
700,0.1345180869,
701,0.007814086974,
702,0.07919816673,
703,0.1031121165,
704,0.12309964,
705,0.1059568971,
706,0.1094630882,
707,0.06605310738,
708,-0.06663260609,
709,0.1690121889,
710,0.1236413494,
710.9799805,-0.03462523967,
711.9699707,0.2126603723,
712.9500122,-0.171827212,
713.9400024,0.1921273023,
715.0700073,-0.1944635212,
716.0499878,0.2253641486,
717.039978,0.1249765605,
718.0200195,-0.01295924373,
719.0100098,0.04087416083,
720,0.1851561666,
720.9799805,0.3323815167,
721.9699707,0,
722.9500122,0.06449324638,
723.9400024,0.5643434525,
725.0700073,0.3148353696,
726.0499878,0.2016671151,
727.039978,-0.3197146058,
728.0200195,-0.3563445508,
729.0100098,0.04892208427,
730,0.04923521355,
730.9799805,0.01640716009,
731.9699707,0.2680381238,
732.9500122,0.03424774855,
733.9400024,-0.05361355096,
735.0700073,0.09295235574,
736.0499878,0.03834944218,
737.039978,0,
738.0200195,0.1458151042,
739.0100098,0.06482422352,
740,0.5772262216,

Sample 16,
Sample 16
Collection Time: 8/08/2023 4:42:11 PM
Operator Name  :
Scan Software Version: 1.2(147)
Parameter List :
Instrument                        Cary Eclipse
Instrument Serial Number          test
Data mode                         Fluorescence
Scan mode                         Excitation
X Mode                            Wavelength (nm)
Start (nm)                        220.00
Stop (nm)                         740.00
Em. Wavelength (nm)               750.00
Ex. Slit (nm)                     5
Em. Slit (nm)                     5
Scan rate (nm/min)                120.00
Data interval (nm)                1.0000
Averaging Time (s)                0.5000
Excitation filter                 Auto
Emission filter                   Open
PMT voltage (V)                   Medium
Corrected spectra                 OFF
Method Log     :
Method Name    : Default
Date/Time stamp: 8/08/2023 3:45:53 PM
Method Modifications:
Overlayed Graphs Changed: 8/08/2023 3:46:16 PM, Old:OFF, New:ON
Scan Control Changed: 8/08/2023 3:46:16 PM, Old:Medium, New:Slow
Ave. time (s): Changed: 8/08/2023 3:46:16 PM, Old:0.10000, New:0.50000
Excitation Wavelength Changed: 8/08/2023 3:46:16 PM, Old: 350.00, New: 390.00
Stop Wavelength Changed: 8/08/2023 3:46:16 PM, Old: 600.00, New: 700.00
Scan mode: Changed: 8/08/2023 3:53:59 PM, Old:Emission, New:Excitation
User Delta Stop Changed: 8/08/2023 3:53:59 PM, Old: 450.00, New: 550.00
User Delta Increment Changed: 8/08/2023 3:53:59 PM, Old:  10.00, New:   0.15
Excitation Wavelength Changed: 8/08/2023 3:53:59 PM, Old: 390.00, New: 220.00
Emission Wavelength Changed: 8/08/2023 3:53:59 PM, Old: 400.00, New: 550.00
Stop Wavelength Changed: 8/08/2023 3:53:59 PM, Old: 700.00, New: 540.00
Scan mode: Changed: 8/08/2023 4:01:40 PM, Old:Excitation, New:Emission
Excitation Wavelength Changed: 8/08/2023 4:01:40 PM, Old: 220.00, New: 420.00
Emission Wavelength Changed: 8/08/2023 4:01:40 PM, Old: 550.00, New: 430.00
Stop Wavelength Changed: 8/08/2023 4:01:40 PM, Old: 540.00, New: 700.00
Scan mode: Changed: 8/08/2023 4:08:47 PM, Old:Emission, New:Excitation
Excitation Wavelength Changed: 8/08/2023 4:08:47 PM, Old: 420.00, New: 220.00
Emission Wavelength Changed: 8/08/2023 4:08:47 PM, Old: 430.00, New: 540.00
Stop Wavelength Changed: 8/08/2023 4:08:47 PM, Old: 700.00, New: 530.00
Scan mode: Changed: 8/08/2023 4:17:05 PM, Old:Excitation, New:Emission
User Delta Stop Changed: 8/08/2023 4:17:05 PM, Old: 550.00, New: 585.00
Excitation Wavelength Changed: 8/08/2023 4:17:05 PM, Old: 220.00, New: 585.00
Emission Wavelength Changed: 8/08/2023 4:17:05 PM, Old: 540.00, New: 595.00
Stop Wavelength Changed: 8/08/2023 4:17:05 PM, Old: 530.00, New: 750.00
User Delta Stop Changed: 8/08/2023 4:19:05 PM, Old: 585.00, New: 630.00
Excitation Wavelength Changed: 8/08/2023 4:19:05 PM, Old: 585.00, New: 630.00
Emission Wavelength Changed: 8/08/2023 4:19:05 PM, Old: 595.00, New: 640.00
Stop Wavelength Changed: 8/08/2023 4:19:05 PM, Old: 750.00, New: 850.00
Scan mode: Changed: 8/08/2023 4:26:11 PM, Old:Emission, New:Excitation
User Delta Stop Changed: 8/08/2023 4:26:11 PM, Old: 630.00, New: 750.00
Excitation Wavelength Changed: 8/08/2023 4:26:11 PM, Old: 630.00, New: 220.00
Emission Wavelength Changed: 8/08/2023 4:26:11 PM, Old: 640.00, New: 750.00
Stop Wavelength Changed: 8/08/2023 4:26:11 PM, Old: 850.00, New: 740.00
PMT Volts Changed: 8/08/2023 4:30:58 PM, Old:600, New:800
Emission PMT (V): Changed: 8/08/2023 4:30:58 PM, Old: 600, New: 800
Excitation Wavelength Changed: 8/08/2023 4:30:58 PM, Old: 220.00, New: 400.00
Emission Wavelength Changed: 8/08/2023 4:30:58 PM, Old: 750.00, New: 720.00
Stop Wavelength Changed: 8/08/2023 4:30:58 PM, Old: 740.00, New: 710.00
PMT Volts Changed: 8/08/2023 4:35:35 PM, Old:800, New:600
Emission PMT (V): Changed: 8/08/2023 4:35:35 PM, Old: 800, New: 600
Emission Wavelength Changed: 8/08/2023 4:35:35 PM, Old: 720.00, New: 750.00
Stop Wavelength Changed: 8/08/2023 4:35:35 PM, Old: 710.00, New: 740.00
Excitation Wavelength Changed: 8/08/2023 4:36:02 PM, Old: 400.00, New: 220.00
End Method Modifications

